Folder: EIS_HIROF/ASCII files

Note: ASCII files/1.58 V 10 cycle.txt
freq/Hz	Re(Z)/Ohm	Im(Z)/Ohm	
1.0000616E+000	6.6460472E+001	-4.1621909E+000
1.2596772E+000	6.9726204E+001	-4.8514900E+000
1.5846864E+000	7.1447105E+001	-5.6388087E+000
1.9950197E+000	7.2789803E+001	-6.5656629E+000
2.5112481E+000	7.3850883E+001	-8.3333712E+000
3.1629577E+000	7.3929619E+001	-1.0689674E+001
3.9819033E+000	7.3207527E+001	-1.3005639E+001
5.0144420E+000	7.1915390E+001	-1.5512242E+001
6.3105822E+000	7.0263763E+001	-1.8761480E+001
7.9476089E+000	6.7462349E+001	-2.2110966E+001
1.0003224E+001	6.3808800E+001	-2.5725924E+001
1.2600795E+001	5.8786007E+001	-2.8868618E+001
1.5857593E+001	5.2704487E+001	-3.1065565E+001
1.9968077E+001	4.5890549E+001	-3.1975405E+001
2.5136768E+001	3.8901512E+001	-3.1411188E+001
3.1650887E+001	3.2483704E+001	-2.9458263E+001
3.9834305E+001	2.7024755E+001	-2.6522139E+001
5.0144421E+001	2.2724487E+001	-2.3146996E+001
6.3160732E+001	1.9507105E+001	-1.9668779E+001
7.9516319E+001	1.7210020E+001	-1.6428997E+001
1.0009631E+002	1.5628385E+001	-1.3527547E+001
1.2600794E+002	1.4537627E+001	-1.1075411E+001
1.5862956E+002	1.3794616E+001	-9.0080090E+000
1.9968077E+002	1.3290790E+001	-7.2975559E+000
2.5152937E+002	1.2939061E+001	-5.9141798E+000
3.1651929E+002	1.2709924E+001	-4.8154559E+000
3.9859711E+002	1.2542497E+001	-3.9197600E+000
5.0176605E+002	1.2417197E+001	-3.2109981E+000
6.3181964E+002	1.2318160E+001	-2.6566384E+000
7.9525262E+002	1.2208568E+001	-2.2087975E+000
1.0016039E+003	1.2133995E+001	-1.8489097E+000
1.2603998E+003	1.2056650E+001	-1.5679225E+000
1.5875399E+003	1.1978963E+001	-1.3463007E+000
1.9980818E+003	1.1912778E+001	-1.1678209E+000
2.5158079E+003	1.1844256E+001	-1.0324175E+000
3.1680391E+003	1.1775199E+001	-9.3095726E-001
3.9862766E+003	1.1704787E+001	-8.5071701E-001
5.0216094E+003	1.1629682E+001	-7.8138900E-001
6.3226445E+003	1.1545952E+001	-7.3517722E-001
7.9597607E+003	1.1467044E+001	-7.0170003E-001
1.0020785E+004	1.1376074E+001	-6.7253375E-001
1.2609489E+004	1.1273541E+001	-6.3422763E-001
1.5875519E+004	1.1181871E+001	-5.9287965E-001
1.9995176E+004	1.1084346E+001	-5.4125327E-001
2.5172584E+004	1.1000989E+001	-4.8915997E-001
3.1686090E+004	1.0939893E+001	-4.3215019E-001
3.9888285E+004	1.0872474E+001	-3.6753190E-001
5.0224543E+004	1.0827958E+001	-3.0516180E-001
6.3233004E+004	1.0795023E+001	-2.5607061E-001
7.9609555E+004	1.0776977E+001	-2.0480488E-001
1.0022640E+005	1.0738820E+001	-1.6416208E-001
1.2617837E+005	1.0721575E+001	-1.2409746E-001
1.5885725E+005	1.0707621E+001	-7.5870134E-002
1.9999814E+005	1.0706216E+001	-3.1714048E-002

Note: ASCII files/1_00_V_10_cycle.txt
1.0000616E+000	3.8400322E+001	-8.0624567E+002
1.2596772E+000	3.0884302E+001	-6.4631519E+002
1.5846864E+000	2.7022837E+001	-5.1751373E+002
1.9950197E+000	2.3439560E+001	-4.1399051E+002
2.5112481E+000	2.0886562E+001	-3.3039362E+002
3.1629577E+000	1.9302885E+001	-2.6401410E+002
3.9819033E+000	1.8087473E+001	-2.1031444E+002
5.0144420E+000	1.6901197E+001	-1.6788953E+002
6.3105822E+000	1.6334602E+001	-1.3400578E+002
7.9476089E+000	1.5522514E+001	-1.0687086E+002
1.0003224E+001	1.5008390E+001	-8.5390518E+001
1.2600795E+001	1.4559372E+001	-6.8108246E+001
1.5857593E+001	1.4266624E+001	-5.4441631E+001
1.9968077E+001	1.3944331E+001	-4.3433117E+001
2.5136768E+001	1.3729849E+001	-3.4682858E+001
3.1650887E+001	1.3499067E+001	-2.7734352E+001
3.9834305E+001	1.3345886E+001	-2.2177443E+001
5.0144421E+001	1.3220526E+001	-1.7723907E+001
6.3160732E+001	1.3106725E+001	-1.4211796E+001
7.9516319E+001	1.3002560E+001	-1.1397797E+001
1.0009631E+002	1.2916718E+001	-9.1516924E+000
1.2600794E+002	1.2836068E+001	-7.3639169E+000
1.5862956E+002	1.2763480E+001	-5.9421744E+000
1.9968077E+002	1.2698985E+001	-4.8121676E+000
2.5152937E+002	1.2630685E+001	-3.9205828E+000
3.1651929E+002	1.2569906E+001	-3.2138755E+000
3.9859711E+002	1.2500572E+001	-2.6544089E+000
5.0176605E+002	1.2432694E+001	-2.2123415E+000
6.3181964E+002	1.2357817E+001	-1.8673329E+000
7.9525262E+002	1.2283276E+001	-1.5747237E+000
1.0016039E+003	1.2224981E+001	-1.3448532E+000
1.2603998E+003	1.2153278E+001	-1.1793934E+000
1.5875399E+003	1.2076908E+001	-1.0346676E+000
1.9980818E+003	1.2005692E+001	-9.0902126E-001
2.5158079E+003	1.1935211E+001	-8.2407188E-001
3.1680391E+003	1.1869720E+001	-7.5553340E-001
3.9862766E+003	1.1797766E+001	-7.0433462E-001
5.0216094E+003	1.1736336E+001	-6.7812783E-001
6.3226445E+003	1.1666185E+001	-6.4456666E-001
7.9597607E+003	1.1581870E+001	-6.3136381E-001
1.0020785E+004	1.1499626E+001	-6.1178899E-001
1.2609489E+004	1.1401163E+001	-5.9997803E-001
1.5875519E+004	1.1313605E+001	-5.7777786E-001
1.9995176E+004	1.1215563E+001	-5.4786104E-001
2.5172584E+004	1.1120973E+001	-5.1408988E-001
3.1686090E+004	1.1028270E+001	-4.6805021E-001
3.9888285E+004	1.0959478E+001	-4.0273505E-001
5.0224543E+004	1.0911633E+001	-3.5339463E-001
6.3233004E+004	1.0860192E+001	-2.9826999E-001
7.9609555E+004	1.0824509E+001	-2.4319972E-001
1.0022640E+005	1.0793134E+001	-1.9138369E-001
1.2617837E+005	1.0779320E+001	-1.4979330E-001
1.5885725E+005	1.0756349E+001	-1.0578001E-001
1.9999814E+005	1.0749776E+001	-5.4369245E-002

File: ex1.mpt
EC-Lab ASCII FILE
Nb header lines : 61

Potentio Electrochemical Impedance Spectroscopy

Run on channel : 1 (SN 12040)
User : kknu
CE vs. WE compliance from -10 V to 10 V
Electrode connection : standard
Ewe ctrl range : min = -1.50 V, max = 0.50 V
Safety Limits :
	Do not start on E overload
Acquisition started on : xx/xx/xxxx xx:xx:xx
Technique started on : xx/xx/xxxx xx:xx:xx
Saved on :
	File : xxx.mpr
	Directory : xx\
	Host : xxx.xxx.xxx.xx
Device : VSP (SN xxxx)
Address : xxx.xxx.xx.xxx
EC-Lab for windows v11.16 (software)
Internet server v11.16 (firmware)
Command interpretor v11.16 (firmware)
Electrode material :
Initial state :
Electrolyte :
Comments :
Electrode surface area : 0.001 cm²
Characteristic mass : 0.001 g
Equivalent Weight : 0.000 g/eq.
Density : 0.000 g/cm3
Cycle Definition : Charge/Discharge alternance
Mode                Single sine
E (V)               -1.0500
vs.                 Ref
tE (h:m:s)          0:01:0.0000
record              0
dI                  0.000
unit dI             mA
dt (s)              0.000
fi                  200.000
unit fi             kHz
ff                  10.000
unit ff             mHz
Nd                  8
Points              per decade
spacing             Logarithmic
Va (mV)             10.0
pw                  0.50
Na                  3
corr                0
E range min (V)     -1.500
E range max (V)     0.500
I Range             Auto
Bandwidth           5
nc cycles           0
goto Ns'            0
nr cycles           1
inc. cycle          1

freq/Hz	Re(Z)/Ohm	-Im(Z)/Ohm	|Z|/Ohm	Phase(Z)/deg	time/s	<Ewe>/V	<I>/mA	Cs/µF	Cp/µF	cycle number	I Range	|Ewe|/V	|I|/A	Re(Y)/Ohm-1	Im(Y)/Ohm-1	|Y|/Ohm-1	Phase(Y)/deg
200019	428.906	372.312	567.958	-40.9596	13125.2	-1.05006	-0.00318205	0.00213718	0.00091838	1	12	0.00926961	1.63209e-05	0.00132963	0.00115418	0.00176069	40.9596
112012	790.369	1276.19	1501.12	-58.2293	13126.6	-1.05033	-0.00359721	0.00111337	0.000804719	1	12	0.0101984	6.7939e-06	0.000350753	0.000566353	0.000666171	58.2293
62734.4	1863.75	1040.75	2134.65	-29.1797	13127.7	-1.05027	-0.00359612	0.00243764	0.000579439	1	12	0.0104275	4.8849e-06	0.000409012	0.000228398	0.000468462	29.1797
35136.7	2135.79	563.038	2208.76	-14.7683	13128.8	-1.05028	-0.00358082	0.00804491	0.000522757	1	12	0.0102833	4.65569e-06	0.000437786	0.000115409	0.000452742	14.7683
19677.7	2184.39	309.38	2206.19	-8.06132	13129.8	-1.05032	-0.00357473	0.0261429	0.000514106	1	12	0.01065	4.82732e-06	0.000448792	6.35635e-05	0.000453271	8.06132
11025.4	2201.3	192.364	2209.69	-4.99418	13130.8	-1.05024	-0.00358682	0.0750417	0.000568703	1	12	0.0104644	4.7357e-06	0.000450833	3.93966e-05	0.000452551	4.99418
6195.49	2213.13	103.182	2215.53	-2.66935	13131.9	-1.05022	-0.00358136	0.248967	0.000539997	1	12	0.0107069	4.83268e-06	0.000450869	2.10207e-05	0.000451359	2.66935
3456.11	2212.19	75.8307	2213.49	-1.96325	13133.5	-1.05024	-0.00359403	0.607279	0.000712727	1	12	0.0107564	4.85948e-06	0.00045151	1.54771e-05	0.000451775	1.96325
1935.62	2213.29	73.5498	2214.51	-1.9033	13135	-1.05025	-0.00361495	1.11794	0.00123318	1	12	0.0107404	4.85e-06	0.000451318	1.49978e-05	0.000451567	1.9033
1083.96	2204.91	91.7084	2206.82	-2.38172	13136.5	-1.05028	-0.00361512	1.60102	0.00276492	1	12	0.010701	4.84906e-06	0.00045275	1.88311e-05	0.000453141	2.38172
607.527	2226.26	142.053	2230.79	-3.65098	13138	-1.05024	-0.00357836	1.84418	0.00747807	1	12	0.0107565	4.82184e-06	0.000447362	2.85453e-05	0.000448272	3.65098
340.109	2258.64	198.13	2267.32	-5.01319	13139.5	-1.05021	-0.00357354	2.36185	0.0180355	1	12	0.010776	4.75277e-06	0.000439363	3.85412e-05	0.00044105	5.01319
190.549	2292.72	333.356	2316.83	-8.2727	13141	-1.05019	-0.00358041	2.50556	0.0518722	1	12	0.010751	4.64041e-06	0.000427133	6.21042e-05	0.000431624	8.2727
106.673	2350.99	534.761	2411.05	-12.8145	13142.7	-1.05025	-0.00370052	2.79002	0.137251	1	13	0.0107788	4.47058e-06	0.000404427	9.19916e-05	0.000414758	12.8145
59.7895	2448.3	694.268	2544.84	-15.8318	13144.3	-1.05024	-0.00370997	3.83414	0.285366	1	13	0.0107197	4.21233e-06	0.000378047	0.000107203	0.000392953	15.8318
33.4276	2662.74	1444.26	3029.2	-28.4752	13145.8	-1.05027	-0.00371732	3.29663	0.749384	1	13	0.0107813	3.55912e-06	0.000290183	0.000157394	0.00033012	28.4752
18.735	3089.15	2298.5	3850.45	-36.6513	13147.3	-1.05028	-0.00371354	3.69591	1.31701	1	13	0.0107359	2.78821e-06	0.000208361	0.000155032	0.00025971	36.6513
10.5007	4031.88	3451.86	5307.67	-40.5682	13148.9	-1.05021	-0.00370816	4.39087	1.85715	1	13	0.0108066	2.03604e-06	0.00014312	0.000122531	0.000188407	40.5682
5.88291	5786.39	4581.45	7380.51	-38.3709	13150.5	-1.05025	-0.00370593	5.90507	2.2754	1	13	0.0107561	1.45737e-06	0.000106227	8.41065e-05	0.000135492	38.3709
3.29363	7970.9	5129.92	9478.99	-32.7646	13152.7	-1.05028	-0.0037292	9.41965	2.75887	1	14	0.0107816	1.13743e-06	8.87121e-05	5.70934e-05	0.000105496	32.7646
1.84257	10103.5	5219.76	11372.2	-27.3222	13156.1	-1.05024	-0.00372504	16.548	3.48626	1	14	0.0107463	9.44968e-07	7.8124e-05	4.03612e-05	8.7934e-05	27.3222
1.0334	11881	5289.49	13005.3	-23.9989	13162.1	-1.05025	-0.00371904	29.1164	4.81645	1	14	0.0107623	8.27531e-07	7.02449e-05	3.12734e-05	7.68919e-05	23.9989
0.578532	13409	5760.69	14594.1	-23.249	13172.8	-1.05025	-0.00370988	47.7549	7.4407	1	14	0.0107379	7.3577e-07	6.29569e-05	2.70471e-05	6.85209e-05	23.249
0.323901	15132.1	6891.33	16627.4	-24.485	13191.8	-1.05025	-0.0037032	71.3024	12.2478	1	14	0.0107529	6.46698e-07	5.4733e-05	2.4926e-05	6.01415e-05	24.485
0.181534	17307.3	8819.93	19425.1	-27.0037	13225.6	-1.05025	-0.00369798	99.4024	20.4927	1	14	0.0107425	5.53019e-07	4.58673e-05	2.33743e-05	5.14797e-05	27.0037
0.101725	20386.9	11816.2	23563.7	-30.0965	13285.9	-1.05026	-0.00369202	132.408	33.2952	1	14	0.0107485	4.56146e-07	3.67167e-05	2.12809e-05	4.24381e-05	30.0965
0.0569665	24964.2	16181.4	29749.8	-32.9507	13393.5	-1.05026	-0.0036652	172.657	51.0798	1	14	0.0107461	3.61216e-07	2.82065e-05	1.82831e-05	3.36137e-05	32.9507
0.0319138	33965.4	22469.4	40725	-33.4862	13585.5	-1.05025	-0.00361441	221.947	67.5634	1	14	0.010747	2.63891e-07	2.04793e-05	1.35478e-05	2.45549e-05	33.4862
0.0178412	47833.2	25210.1	54070	-27.7911	13928.7	-1.05025	-0.00351481	353.853	76.9234	1	14	0.0107485	1.98789e-07	1.63612e-05	8.62306e-06	1.84945e-05	27.7911
0.0100058	61969.1	23548.1	66292.4	-20.8067	14540.7	-1.05025	-0.00337374	675.482	85.2313	1	14	0.0107493	1.62149e-07	1.41009e-05	5.35832e-06	1.50847e-05	20.8067
149678	392.769	795.513	887.191	-63.7231	14603.1	-1.05044	-0.00317069	0.00133664	0.00107467	2	12	0.0101627	1.1455e-05	0.000499002	0.00101068	0.00112715	63.7231
83828.1	1486.04	1327.09	1992.35	-41.7662	14604.4	-1.05037	-0.0031631	0.00143064	0.000634744	2	12	0.0108872	5.46447e-06	0.000374366	0.000334324	0.000501919	41.7662
46953.1	2066.86	759.373	2201.95	-20.1735	14605.5	-1.05034	-0.00317754	0.00446376	0.000530882	2	12	0.0102869	4.67172e-06	0.000426283	0.000156618	0.000454144	20.1735
26298.8	2177.74	404.704	2215.02	-10.5276	14606.4	-1.05027	-0.00316748	0.0149536	0.000499189	2	12	0.0110591	4.99276e-06	0.000443863	8.24861e-05	0.000451462	10.5276
14726.6	2193.13	237.573	2205.96	-6.18252	14607.4	-1.05024	-0.00312394	0.0454906	0.00052762	2	12	0.0105746	4.79365e-06	0.000450681	4.88205e-05	0.000453318	6.18252
8325.19	2200.68	132.301	2204.65	-3.44038	14608.4	-1.05031	-0.00314915	0.144499	0.000520366	2	12	0.0109215	4.95385e-06	0.00045277	2.72197e-05	0.000453587	3.44038
4621.48	2206.52	98.9367	2208.74	-2.56732	14609.9	-1.05022	-0.00317309	0.348082	0.000698405	2	12	0.0102021	4.61896e-06	0.000452292	2.028e-05	0.000452747	2.56732
2585.83	2208.01	64.4483	2208.95	-1.67189	14611.4	-1.05029	-0.00318892	0.955013	0.00081294	2	12	0.0102377	4.63463e-06	0.00045251	1.3208e-05	0.000452703	1.67189
1448.61	2225.57	77.4761	2226.91	-1.99377	14613	-1.05021	-0.00315178	1.41808	0.00171645	2	12	0.0102786	4.61564e-06	0.00044878	1.56229e-05	0.000449052	1.99377
811.298	2222.9	114.229	2225.84	-2.94169	14614.5	-1.05019	-0.00313186	1.71737	0.00452303	2	12	0.0102394	4.60023e-06	0.000448677	2.30563e-05	0.000449269	2.94169
454.564	2239.3	173.317	2246	-4.42576	14616	-1.05024	-0.00317726	2.02015	0.0120296	2	12	0.0102168	4.5489e-06	0.000443909	3.43577e-05	0.000445237	4.42576
254.43	2257.45	267.286	2273.22	-6.75249	14617.5	-1.05024	-0.00316385	2.34032	0.0323554	2	12	0.0102466	4.50755e-06	0.000436854	5.17243e-05	0.000439905	6.75249
142.492	2304.57	425.111	2343.45	-10.4515	14619	-1.05024	-0.00316353	2.6274	0.0864609	2	12	0.0102514	4.37448e-06	0.000419641	7.74088e-05	0.000426721	10.4515
79.8212	2381.76	712.031	2485.91	-16.6441	14620.7	-1.0503	-0.00330317	2.80029	0.229736	2	13	0.0102817	4.136e-06	0.000385413	0.00011522	0.000402267	16.6441
44.728	2502.98	1134.41	2748.05	-24.3812	14622.2	-1.05023	-0.00329176	3.13667	0.534516	2	13	0.0102778	3.74001e-06	0.000331441	0.000150217	0.000363894	24.3812
25.0401	2762.91	1864.8	3333.33	-34.017	14623.8	-1.05033	-0.00326894	3.40842	1.06674	2	13	0.0102376	3.07129e-06	0.000248661	0.000167832	0.0003	34.017
14.0176	3354.69	3029.38	4520.08	-42.083	14625.4	-1.05028	-0.00329626	3.74792	1.68348	2	13	0.0102649	2.27096e-06	0.000164195	0.000148273	0.000221235	42.083
7.85965	4600.39	4527.91	6454.89	-44.5451	14627.1	-1.0502	-0.00328707	4.47217	2.20058	2	13	0.0102258	1.5842e-06	0.000110412	0.000108673	0.000154921	44.5451
4.39893	6823.81	6151.8	9187.44	-42.0353	14628.8	-1.05027	-0.00330116	5.88127	2.63686	2	14	0.0102655	1.11734e-06	8.08422e-05	7.28808e-05	0.000108844	42.0353
2.46607	9761.21	6824.42	11910.2	-34.9588	14631.4	-1.05025	-0.00329703	9.45692	3.10484	2	14	0.010236	8.59424e-07	6.88117e-05	4.81088e-05	8.39613e-05	34.9588
1.38128	12523.1	7023.84	14358.3	-29.2868	14635.9	-1.05023	-0.00330532	16.4046	3.9256	2	14	0.0102451	7.1353e-07	6.07439e-05	3.40695e-05	6.96459e-05	29.2868
0.773208	14942.7	7256.66	16611.6	-25.9027	14643.9	-1.05026	-0.00329594	28.3653	5.41301	2	14	0.0102423	6.16577e-07	5.41512e-05	2.62975e-05	6.0199e-05	25.9027
0.433065	17151	8093.65	18964.8	-25.2629	14658.2	-1.05026	-0.00329316	45.4069	8.27018	2	14	0.0102489	5.40419e-07	4.76862e-05	2.25034e-05	5.27293e-05	25.2629
0.242323	19592.7	9779.96	21898	-26.5267	14683.5	-1.05025	-0.00329013	67.1565	13.3953	2	14	0.0102375	4.67508e-07	4.08588e-05	2.03952e-05	4.56662e-05	26.5267
0.135846	22721.1	12483.8	25924.8	-28.7861	14728.7	-1.05024	-0.00327829	93.8482	21.7616	2	14	0.0102375	3.94894e-07	3.38064e-05	1.85745e-05	3.85732e-05	28.7861
0.0761037	27066.9	16518.5	31709.3	-31.395	14809.2	-1.05024	-0.00326012	126.603	34.3568	2	14	0.0102362	3.22814e-07	2.69195e-05	1.64285e-05	3.15365e-05	31.395
0.0426446	33826.7	22541.8	40649.5	-33.6792	14952.9	-1.05027	-0.0032181	165.564	50.9138	2	14	0.0102309	2.51687e-07	2.04715e-05	1.36421e-05	2.46006e-05	33.6792
0.0238768	46010.1	29608.4	54713.6	-32.7621	15209.5	-1.05024	-0.00315723	225.128	65.9275	2	14	0.0102343	1.87053e-07	1.53696e-05	9.89062e-06	1.8277e-05	32.7621
0.0133776	64626.5	32968	72549.7	-27.0275	15667.8	-1.05024	-0.00304722	360.87	74.5184	2	14	0.0102329	1.41047e-07	1.22783e-05	6.26355e-06	1.37836e-05	27.0275
0.0100058	66802.3	33712.1	74826.8	-26.778	16018	-1.05024	-0.00296725	471.829	95.7725	2	14	0.010235	1.36782e-07	1.1931e-05	6.02103e-06	1.33642e-05	26.778