Folder: EIS_HIROF/MPT files

File: 1_00V_10cyc.mpt
EC-Lab ASCII FILE
Nb header lines : 65

Potentio Electrochemical Impedance Spectroscopy

Run on channel : 1 (SN 11321)
User :
Electrode connection : standard
Potential control : Ewe
Ewe ctrl range : min = -10.00 V. max = 10.00 V
Ewe.I filtering : 50 kHz
Safety Limits :
	Do not start on E overload
Channel : Grounded
Acquisition started on : 04/11/2024 10:26:08.620
Loaded Setting File :  D:\ECLab Data\bh\Ir\Ir impedance\settings\Impedence\2nd\0.8 to 1.18 V.mps
Saved on :
	File : 0.8 to 1_11_PEIS_C01.mpr
	Directory : D:\ECLab Data\bh\Ir\Ir impedance\Repeat to remove negative imped\10 cycles imped\0.8 to 1.18 V\
	Host : 127.0.0.1
Device : SP-300 (SN 1287)
Address : USB
EC-Lab for windows v11.50 (software)
Internet server v11.50 (firmware)
Command interpretor v11.50 (firmware)
Electrode material :
Initial state :
Electrolyte :
Comments :
Cable : standard
Electrode surface area : 0.001 cm�
Characteristic mass : 0.001 g
Equivalent Weight : 0.000 g/eq.
Density : 0.000 g/cm3
Volume (V) : 0.001 cm�
Cycle Definition : Charge/Discharge alternance
Mode                Single sine
E (V)               1.0000
vs.                 Ref
tE (h:m:s)          0:00:0.0000
record              0
dI                  0.000
unit dI             mA
dt (s)              0.000
fi                  1.000
unit fi             Hz
ff                  0.200
unit ff             MHz
Nd                  10
Points              per decade
spacing             Logarithmic
Va (mV)             10.0
pw                  0.10
Na                  2
corr                0
E range min (V)     -10.000
E range max (V)     10.000
I Range             Auto
Bandwidth           8
nc cycles           0
goto Ns'            0
nr cycles           0
inc. cycle          0

freq/Hz	Re(Z)/Ohm	-Im(Z)/Ohm	|Z|/Ohm	Phase(Z)/deg	time/s	<Ewe>/V	<I>/mA	Cs/�F	Cp/�F	cycle number	I Range	|Ewe|/V	|I|/A	Ns	(Q-Qo)/mA.h	Re(Y)/Ohm-1	Im(Y)/Ohm-1	|Y|/Ohm-1	Phase(Y)/deg	Re(C)/nF	Im(C)/nF	|C|/nF	Phase(C)/deg	Re(M)	Im(M)	|M|	Phase(M)/deg	Re(Permittivity)	Im(Permittivity)	|Permittivity|	Phase(Permittivity)/deg	Re(Resistivity)/Ohm.cm	Im(Resistivity)/Ohm.cm	|Resistivity|/Ohm.cm	Phase(Resistivity)/deg	Re(Conductivity)/mS/cm	Im(Conductivity)/mS/cm	|Conductivity|/mS/cm	Phase(Conductivity)/deg	Tan(Delta)	Loss Angle(Delta)/deg	dq/mA.h
1.00006	38.4003	806.246	807.16	-87.2731	04/11/2024 10:31:20.6403	1.00062	0.000242516	197.39	196.944	1	41	0.0100633	1.24675e-05	0	-2.17964e-07	5.89407e-05	0.00123751	0.00123891	87.2731	196944	9380.13	197167	-2.72685	0.0000000E+000	0.0000000E+000	0.0000000E+000	2.72685	0.0000000E+000	0.0000000E+000	0.0000000E+000	-2.72685	0.0000000E+000	0.0000000E+000	0.0000000E+000	-87.2731	0.0000000E+000	0.0000000E+000	0.0000000E+000	87.2731	0.0476286	2.72685	-2.17964e-07
1.99502	23.4396	413.991	414.654	-86.7595	04/11/2024 10:31:24.8032	1.00061	0.000182048	192.7	192.085	1	41	0.0100681	2.42807e-05	0	1.01349e-06	0.000136326	0.0024078	0.00241165	86.7595	192085	10875.6	192392	-3.24055	0.0000000E+000	0.0000000E+000	0.0000000E+000	3.24055	0.0000000E+000	0.0000000E+000	0.0000000E+000	-3.24055	0.0000000E+000	0.0000000E+000	0.0000000E+000	-86.7595	0.0000000E+000	0.0000000E+000	0.0000000E+000	86.7595	0.0566186	3.24054	3.60901e-07
3.9819	18.0875	210.314	211.091	-85.0845	04/11/2024 10:31:27.4050	1.00062	0.000140883	190.047	188.651	1	40	0.0100631	4.76717e-05	0	1.1111e-06	0.000405919	0.00471988	0.0047373	85.0845	188651	16224.4	189348	-4.91546	0.0000000E+000	0.0000000E+000	0.0000000E+000	4.91546	0.0000000E+000	0.0000000E+000	0.0000000E+000	-4.91546	0.0000000E+000	0.0000000E+000	0.0000000E+000	-85.0845	0.0000000E+000	0.0000000E+000	0.0000000E+000	85.0845	0.0860021	4.91547	7.11871e-07
7.94761	15.5225	106.871	107.992	-81.7358	04/11/2024 10:31:28.8215	1.00061	0.000103301	187.38	183.509	1	40	0.0100678	9.32275e-05	0	1.27658e-06	0.001331	0.00916377	0.00925992	81.7358	183509	26653.9	185435	-8.26417	0.0000000E+000	0.0000000E+000	0.0000000E+000	8.26417	0.0000000E+000	0.0000000E+000	0.0000000E+000	-8.26417	0.0000000E+000	0.0000000E+000	0.0000000E+000	-81.7358	0.0000000E+000	0.0000000E+000	0.0000000E+000	81.7358	0.145246	8.26416	8.18809e-07
15.8576	14.2666	54.4416	56.2799	-75.3156	04/11/2024 10:31:30.5619	1.00061	-0.000368146	184.354	172.507	1	39	0.0100658	0.000178852	0	5.28769e-07	0.00450417	0.017188	0.0177683	75.3156	172507	45206.1	178332	-14.6844	0.0000000E+000	0.0000000E+000	0.0000000E+000	14.6844	0.0000000E+000	0.0000000E+000	0.0000000E+000	-14.6844	0.0000000E+000	0.0000000E+000	0.0000000E+000	-75.3156	0.0000000E+000	0.0000000E+000	0.0000000E+000	75.3156	0.262054	14.6844	2.00601e-07
31.6509	13.4991	27.7344	30.8451	-64.0465	04/11/2024 10:31:31.9333	1.00063	-0.000366839	181.308	146.582	1	39	0.0100686	0.000326425	0	9.45808e-07	0.0141883	0.0291505	0.0324201	64.0465	146582	71345.4	163023	-25.9535	0.0000000E+000	0.0000000E+000	0.0000000E+000	25.9535	0.0000000E+000	0.0000000E+000	0.0000000E+000	-25.9535	0.0000000E+000	0.0000000E+000	0.0000000E+000	-64.0465	0.0000000E+000	0.0000000E+000	0.0000000E+000	64.0465	0.486727	25.9535	3.1449e-07
63.1607	13.1067	14.2118	19.3329	-47.3164	04/11/2024 10:31:33.3416	1.00062	-0.000369443	177.306	95.8137	1	39	0.0100859	0.000521695	0	1.66343e-06	0.0350671	0.0380237	0.0517253	47.3164	95813.7	88363.5	130339	-42.6836	0.0000000E+000	0.0000000E+000	0.0000000E+000	42.6836	0.0000000E+000	0.0000000E+000	0.0000000E+000	-42.6836	0.0000000E+000	0.0000000E+000	0.0000000E+000	-47.3164	0.0000000E+000	0.0000000E+000	0.0000000E+000	47.3164	0.922243	42.6836	3.00291e-07
126.008	12.8361	7.36392	14.7984	-29.8424	04/11/2024 10:31:34.7362	1.00061	-0.000414525	171.519	42.472	1	39	0.0100939	0.000682094	0	2.03879e-06	0.0586143	0.0336264	0.067575	29.8424	42472	74033.1	85350.9	-60.1576	0.0000000E+000	0.0000000E+000	0.0000000E+000	60.1576	0.0000000E+000	0.0000000E+000	0.0000000E+000	-60.1576	0.0000000E+000	0.0000000E+000	0.0000000E+000	-29.8424	0.0000000E+000	0.0000000E+000	0.0000000E+000	29.8424	1.7431	60.1576	4.08632e-07
251.529	12.6307	3.92058	13.2252	-17.2444	04/11/2024 10:31:36.3866	1.00063	-0.00484947	161.392	14.1834	1	38	0.0100688	0.000761338	0	1.60863e-07	0.0722145	0.0224155	0.0756134	17.2444	14183.4	45693.6	47844.3	-72.7556	0.0000000E+000	0.0000000E+000	0.0000000E+000	72.7556	0.0000000E+000	0.0000000E+000	0.0000000E+000	-72.7556	0.0000000E+000	0.0000000E+000	0.0000000E+000	-17.2444	0.0000000E+000	0.0000000E+000	0.0000000E+000	17.2444	3.22163	72.7556	-1.43977e-06
501.766	12.4327	2.21234	12.628	-10.0899	04/11/2024 10:31:37.7791	1.00062	-0.00513474	143.373	4.4005	1	38	0.0100716	0.000797557	0	-2.99736e-07	0.0779644	0.0138734	0.0791891	10.0899	4400.5	24729.5	25118	-79.9101	0.0000000E+000	0.0000000E+000	0.0000000E+000	79.9101	0.0000000E+000	0.0000000E+000	0.0000000E+000	-79.9101	0.0000000E+000	0.0000000E+000	0.0000000E+000	-10.0899	0.0000000E+000	0.0000000E+000	0.0000000E+000	10.0899	5.6197	79.9101	-1.05459e-07
1001.6	12.225	1.34485	12.2987	-6.27779	04/11/2024 10:31:39.1704	1.00062	-0.00500609	118.154	1.41279	1	38	0.0100759	0.000819261	0	-2.04148e-06	0.0808216	0.00889107	0.0813092	6.27779	1412.79	12842.6	12920	-83.7222	0.0000000E+000	0.0000000E+000	0.0000000E+000	83.7222	0.0000000E+000	0.0000000E+000	0.0000000E+000	-83.7222	0.0000000E+000	0.0000000E+000	0.0000000E+000	-6.27779	0.0000000E+000	0.0000000E+000	0.0000000E+000	6.27779	9.0902	83.7222	-8.76176e-07
1998.08	12.0057	0.909021	12.0401	-4.32994	04/11/2024 10:31:40.5659	1.00063	-0.00507321	87.626	0.499487	1	38	0.0100747	0.000836765	0	-3.76402e-06	0.082819	0.00627071	0.0830561	4.32994	499.487	6596.86	6615.74	-85.6701	0.0000000E+000	0.0000000E+000	0.0000000E+000	85.6701	0.0000000E+000	0.0000000E+000	0.0000000E+000	-85.6701	0.0000000E+000	0.0000000E+000	0.0000000E+000	-4.32994	0.0000000E+000	0.0000000E+000	0.0000000E+000	4.32994	13.2073	85.6701	-5.70716e-07
3986.28	11.7978	0.704335	11.8188	-3.41654	04/11/2024 10:31:41.9607	1.00064	-0.005778	56.6857	0.20132	1	38	0.0100688	0.00085193	0	-4.77932e-06	0.0844608	0.00504237	0.0846112	3.41654	201.32	3372.16	3378.16	-86.5835	0.0000000E+000	0.0000000E+000	0.0000000E+000	86.5835	0.0000000E+000	0.0000000E+000	0.0000000E+000	-86.5835	0.0000000E+000	0.0000000E+000	0.0000000E+000	-3.41654	0.0000000E+000	0.0000000E+000	0.0000000E+000	3.41654	16.7502	86.5835	-1.51161e-07
7959.76	11.5819	0.631364	11.5991	-3.12028	04/11/2024 10:31:43.1348	1.00063	-0.00536594	31.6694	0.0938326	1	38	0.0100334	0.000865017	0	-6.14223e-06	0.086086	0.00469282	0.0862138	3.12028	93.8327	1721.28	1723.84	-86.8797	0.0000000E+000	0.0000000E+000	0.0000000E+000	86.8797	0.0000000E+000	0.0000000E+000	0.0000000E+000	-86.8797	0.0000000E+000	0.0000000E+000	0.0000000E+000	-3.12028	0.0000000E+000	0.0000000E+000	0.0000000E+000	3.12028	18.3442	86.8797	-7.76953e-07
15875.5	11.3136	0.577778	11.3283	-2.92352	04/11/2024 10:31:44.1185	1.00066	-0.00567731	17.3513	0.0451357	1	38	0.0103711	0.000915499	0	-7.66843e-06	0.0881592	0.00450223	0.0882741	2.92352	45.1357	883.812	884.964	-87.0765	0.0000000E+000	0.0000000E+000	0.0000000E+000	87.0765	0.0000000E+000	0.0000000E+000	0.0000000E+000	-87.0765	0.0000000E+000	0.0000000E+000	0.0000000E+000	-2.92352	0.0000000E+000	0.0000000E+000	0.0000000E+000	2.92352	19.5812	87.0765	-1.13102e-06
31686.1	11.0283	0.46805	11.0382	-2.43023	04/11/2024 10:31:44.9705	1.00065	-0.0056568	10.7315	0.0192951	1	38	0.00983282	0.0008908	0	-9.77633e-06	0.090513	0.00384146	0.0905945	2.43023	19.2951	454.635	455.044	-87.5698	0.0000000E+000	0.0000000E+000	0.0000000E+000	87.5698	0.0000000E+000	0.0000000E+000	0.0000000E+000	-87.5698	0.0000000E+000	0.0000000E+000	0.0000000E+000	-2.43023	0.0000000E+000	0.0000000E+000	0.0000000E+000	2.43023	23.5622	87.5698	-1.12276e-06
63233	10.8602	0.29827	10.8643	-1.57321	04/11/2024 10:31:46.0925	1.00066	-0.00704588	8.43853	0.00636038	1	38	0.00990475	0.00091168	0	-1.22027e-05	0.09201	0.00252701	0.0920447	1.57321	6.36038	231.585	231.673	-88.4268	0.0000000E+000	0.0000000E+000	0.0000000E+000	88.4268	0.0000000E+000	0.0000000E+000	0.0000000E+000	-88.4268	0.0000000E+000	0.0000000E+000	0.0000000E+000	-1.57321	0.0000000E+000	0.0000000E+000	0.0000000E+000	1.57321	36.4106	88.4268	-7.59285e-07
126178	10.7793	0.149793	10.7804	-0.796152	04/11/2024 10:31:47.3495	1.00065	-0.00705707	8.4206	0.00162578	1	38	0.00952553	0.000883601	0	-1.588e-05	0.0927523	0.00128892	0.0927613	0.796152	1.62577	116.993	117.004	-89.2039	0.0000000E+000	0.0000000E+000	0.0000000E+000	89.2039	0.0000000E+000	0.0000000E+000	0.0000000E+000	-89.2039	0.0000000E+000	0.0000000E+000	0.0000000E+000	-0.796152	0.0000000E+000	0.0000000E+000	0.0000000E+000	0.796152	71.9613	89.2039	-5.48029e-07
199998	10.7498	0.0543692	10.7499	-0.289783	04/11/2024 10:31:48.1875	1.00064	-0.00690231	14.6366	0.000374401	1	38	0.00956226	0.00088952	0	-1.79301e-05	0.0930228	0.000470482	0.093024	0.289783	0.374397	74.0259	74.0268	-89.7102	0.0000000E+000	0.0000000E+000	0.0000000E+000	89.7102	0.0000000E+000	0.0000000E+000	0.0000000E+000	-89.7102	0.0000000E+000	0.0000000E+000	0.0000000E+000	-0.289783	0.0000000E+000	0.0000000E+000	0.0000000E+000	0.289783	197.718	89.7102	-6.63992e-07

File: 1_58V_10cyc.mpt
EC-Lab ASCII FILE
Nb header lines : 65

Potentio Electrochemical Impedance Spectroscopy

Run on channel : 1 (SN 11321)
User :
Electrode connection : standard
Potential control : Ewe
Ewe ctrl range : min = -10.00 V. max = 10.00 V
Ewe.I filtering : 50 kHz
Safety Limits :
	Do not start on E overload
Channel : Grounded
Acquisition started on : 04/11/2024 10:37:55.468
Loaded Setting File :  D:\ECLab Data\bh\Ir\Ir impedance\settings\Impedence\3rd\1.2 to 1.58 V.mps
Saved on :
	File : 1.2 to 1_20_PEIS_C01.mpr
	Directory : D:\ECLab Data\bh\Ir\Ir impedance\Repeat to remove negative imped\10 cycles imped\1.2 to 1.58\
	Host : 127.0.0.1
Device : SP-300 (SN 1287)
Address : USB
EC-Lab for windows v11.50 (software)
Internet server v11.50 (firmware)
Command interpretor v11.50 (firmware)
Electrode material :
Initial state :
Electrolyte :
Comments :
Cable : standard
Electrode surface area : 0.001 cm�
Characteristic mass : 0.001 g
Equivalent Weight : 0.000 g/eq.
Density : 0.000 g/cm3
Volume (V) : 0.001 cm�
Cycle Definition : Charge/Discharge alternance
Mode                Single sine
E (V)               1.5800
vs.                 Ref
tE (h:m:s)          0:00:0.0000
record              0
dI                  0.000
unit dI             mA
dt (s)              0.000
fi                  1.000
unit fi             Hz
ff                  0.200
unit ff             MHz
Nd                  10
Points              per decade
spacing             Logarithmic
Va (mV)             10.0
pw                  0.10
Na                  2
corr                0
E range min (V)     -10.000
E range max (V)     10.000
I Range             Auto
Bandwidth           8
nc cycles           0
goto Ns'            0
nr cycles           0
inc. cycle          0

freq/Hz	Re(Z)/Ohm	-Im(Z)/Ohm	|Z|/Ohm	Phase(Z)/deg	time/s	<Ewe>/V	<I>/mA	Cs/�F	Cp/�F	cycle number	I Range	|Ewe|/V	|I|/A	Ns	(Q-Qo)/mA.h	Re(Y)/Ohm-1	Im(Y)/Ohm-1	|Y|/Ohm-1	Phase(Y)/deg	Re(C)/nF	Im(C)/nF	|C|/nF	Phase(C)/deg	Re(M)	Im(M)	|M|	Phase(M)/deg	Re(Permittivity)	Im(Permittivity)	|Permittivity|	Phase(Permittivity)/deg	Re(Resistivity)/Ohm.cm	Im(Resistivity)/Ohm.cm	|Resistivity|/Ohm.cm	Phase(Resistivity)/deg	Re(Conductivity)/mS/cm	Im(Conductivity)/mS/cm	|Conductivity|/mS/cm	Phase(Conductivity)/deg	Tan(Delta)	Loss Angle(Delta)/deg	dq/mA.h
1.00006	66.4605	4.16219	66.5907	-3.58356	04/11/2024 10:47:39.8647	1.58052	0.323527	38235.9	149.379	1	40	0.0100697	0.000151218	0	0.000195291	0.0149878	0.000938632	0.0150171	3.58356	149379	2.38523e+06	2.3899e+06	-86.4164	0.0000000E+000	0.0000000E+000	0.0000000E+000	86.4164	0.0000000E+000	0.0000000E+000	0.0000000E+000	-86.4164	0.0000000E+000	0.0000000E+000	0.0000000E+000	-3.58356	0.0000000E+000	0.0000000E+000	0.0000000E+000	3.58356	15.9677	86.4164	0.000195291
1.99502	72.7898	6.56566	73.0853	-5.15415	04/11/2024 10:47:44.0288	1.58051	0.298901	12150.5	98.0599	1	40	0.0100721	0.000137812	0	0.000545211	0.0136273	0.00122919	0.0136826	5.15415	98059.9	1.08713e+06	1.09155e+06	-84.8458	0.0000000E+000	0.0000000E+000	0.0000000E+000	84.8458	0.0000000E+000	0.0000000E+000	0.0000000E+000	-84.8458	0.0000000E+000	0.0000000E+000	0.0000000E+000	-5.15415	0.0000000E+000	0.0000000E+000	0.0000000E+000	5.15415	11.0864	84.8458	9.21221e-05
3.9819	73.2075	13.0056	74.3538	-10.0737	04/11/2024 10:47:46.1806	1.5805	0.289744	3073.25	94.0275	1	40	0.0100679	0.000135405	0	0.000718835	0.0132419	0.00235248	0.0134492	10.0737	94027.5	529272	537559	-79.9263	0.0000000E+000	0.0000000E+000	0.0000000E+000	79.9263	0.0000000E+000	0.0000000E+000	0.0000000E+000	-79.9263	0.0000000E+000	0.0000000E+000	0.0000000E+000	-10.0737	0.0000000E+000	0.0000000E+000	0.0000000E+000	10.0737	5.62891	79.9263	4.34832e-05
7.94761	67.4623	22.111	70.9934	-18.1467	04/11/2024 10:47:47.5971	1.58051	0.285045	905.682	87.8528	1	40	0.0100744	0.000141907	0	0.000830793	0.0133852	0.00438704	0.0140858	18.1467	87852.8	268046	282076	-71.8533	0.0000000E+000	0.0000000E+000	0.0000000E+000	71.8533	0.0000000E+000	0.0000000E+000	0.0000000E+000	-71.8533	0.0000000E+000	0.0000000E+000	0.0000000E+000	-18.1467	0.0000000E+000	0.0000000E+000	0.0000000E+000	18.1467	3.05108	71.8533	4.44178e-05
15.8576	52.7045	31.0656	61.1787	-30.5163	04/11/2024 10:47:49.2996	1.5805	0.278894	323.075	83.3032	1	39	0.0100661	0.000164536	0	0.000959912	0.0140814	0.00830001	0.0163456	30.5163	83303.2	141329	164052	-59.4837	0.0000000E+000	0.0000000E+000	0.0000000E+000	59.4837	0.0000000E+000	0.0000000E+000	0.0000000E+000	-59.4837	0.0000000E+000	0.0000000E+000	0.0000000E+000	-30.5163	0.0000000E+000	0.0000000E+000	0.0000000E+000	30.5163	1.69656	59.4837	3.35336e-05
31.6509	32.4837	29.4583	43.8518	-42.2037	04/11/2024 10:47:50.6699	1.58051	0.274702	170.697	77.0312	1	39	0.0100741	0.000229731	0	0.00106327	0.0168924	0.0153191	0.0228041	42.2037	77031.2	84942.5	114669	-47.7963	0.0000000E+000	0.0000000E+000	0.0000000E+000	47.7963	0.0000000E+000	0.0000000E+000	0.0000000E+000	-47.7963	0.0000000E+000	0.0000000E+000	0.0000000E+000	-42.2037	0.0000000E+000	0.0000000E+000	0.0000000E+000	42.2037	1.1027	47.7963	3.31707e-05
63.1607	19.5071	19.6688	27.7018	-45.2365	04/11/2024 10:47:52.0772	1.5805	0.269094	128.114	64.5856	1	39	0.0100809	0.000363908	0	0.00116661	0.0254201	0.0256308	0.0360988	45.2365	64585.6	64054.7	90963.1	-44.7635	0.0000000E+000	0.0000000E+000	0.0000000E+000	44.7635	0.0000000E+000	0.0000000E+000	0.0000000E+000	-44.7635	0.0000000E+000	0.0000000E+000	0.0000000E+000	-45.2365	0.0000000E+000	0.0000000E+000	0.0000000E+000	45.2365	0.99178	44.7636	3.47114e-05
126.008	14.5376	11.0754	18.2759	-37.3018	04/11/2024 10:47:53.4718	1.5805	0.262154	114.041	41.8819	1	39	0.0101063	0.000552985	0	0.00126684	0.0435249	0.0331592	0.054717	37.3018	41881.9	54974.3	69110.5	-52.6982	0.0000000E+000	0.0000000E+000	0.0000000E+000	52.6982	0.0000000E+000	0.0000000E+000	0.0000000E+000	-52.6982	0.0000000E+000	0.0000000E+000	0.0000000E+000	-37.3018	0.0000000E+000	0.0000000E+000	0.0000000E+000	37.3018	1.3126	52.6982	3.2517e-05
251.529	12.9391	5.91418	14.2266	-24.5642	04/11/2024 10:47:55.1202	1.58052	0.249032	106.988	18.4894	1	38	0.0100748	0.000708166	0	0.00137931	0.0639292	0.0292207	0.0702907	24.5642	18489.4	40451.1	44476.4	-65.4358	0.0000000E+000	0.0000000E+000	0.0000000E+000	65.4358	0.0000000E+000	0.0000000E+000	0.0000000E+000	-65.4358	0.0000000E+000	0.0000000E+000	0.0000000E+000	-24.5642	0.0000000E+000	0.0000000E+000	0.0000000E+000	24.5642	2.1878	65.4358	3.15826e-05
501.766	12.4172	3.211	12.8256	-14.4987	04/11/2024 10:47:56.5137	1.58051	0.243782	98.7822	6.19156	1	38	0.0100784	0.000785802	0	0.0014738	0.0754857	0.0195201	0.0779688	14.4987	6191.56	23943.3	24730.9	-75.5013	0.0000000E+000	0.0000000E+000	0.0000000E+000	75.5013	0.0000000E+000	0.0000000E+000	0.0000000E+000	-75.5013	0.0000000E+000	0.0000000E+000	0.0000000E+000	-14.4987	0.0000000E+000	0.0000000E+000	0.0000000E+000	14.4987	3.86708	75.5013	3.06554e-05
1001.6	12.134	1.84891	12.2741	-8.66377	04/11/2024 10:47:57.9051	1.5805	0.240463	85.9426	1.95013	1	38	0.0100788	0.000821144	0	0.00156388	0.080543	0.0122727	0.0814727	8.66377	1950.13	12798.3	12946	-81.3362	0.0000000E+000	0.0000000E+000	0.0000000E+000	81.3362	0.0000000E+000	0.0000000E+000	0.0000000E+000	-81.3362	0.0000000E+000	0.0000000E+000	0.0000000E+000	-8.66377	0.0000000E+000	0.0000000E+000	0.0000000E+000	8.66377	6.56278	81.3362	2.98007e-05
1998.08	11.9128	1.16782	11.9699	-5.59887	04/11/2024 10:47:59.3006	1.5805	0.237959	68.2073	0.649237	1	38	0.0100803	0.000842141	0	0.00165463	0.0831445	0.00815073	0.083543	5.59887	649.237	6622.78	6654.52	-84.4011	0.0000000E+000	0.0000000E+000	0.0000000E+000	84.4011	0.0000000E+000	0.0000000E+000	0.0000000E+000	-84.4011	0.0000000E+000	0.0000000E+000	0.0000000E+000	-5.59887	0.0000000E+000	0.0000000E+000	0.0000000E+000	5.59887	10.2009	84.4011	3.09484e-05
3986.28	11.7048	0.850717	11.7357	-4.15701	04/11/2024 10:48:00.6953	1.58051	0.236042	46.9318	0.246617	1	38	0.0100771	0.000858675	0	0.00174561	0.0849862	0.00617689	0.0852104	4.15701	246.617	3393.13	3402.08	-85.843	0.0000000E+000	0.0000000E+000	0.0000000E+000	85.843	0.0000000E+000	0.0000000E+000	0.0000000E+000	-85.843	0.0000000E+000	0.0000000E+000	0.0000000E+000	-4.15701	0.0000000E+000	0.0000000E+000	0.0000000E+000	4.15701	13.7587	85.843	2.99063e-05
7959.76	11.467	0.7017	11.4885	-3.50172	04/11/2024 10:48:01.8694	1.5805	0.234161	28.495	0.106303	1	38	0.010047	0.000874529	0	0.0018205	0.0868811	0.00531649	0.0870436	3.50172	106.303	1737.18	1740.43	-86.4983	0.0000000E+000	0.0000000E+000	0.0000000E+000	86.4983	0.0000000E+000	0.0000000E+000	0.0000000E+000	-86.4983	0.0000000E+000	0.0000000E+000	0.0000000E+000	-3.50172	0.0000000E+000	0.0000000E+000	0.0000000E+000	3.50172	16.3418	86.4983	1.98947e-05
15875.5	11.1819	0.59288	11.1976	-3.03507	04/11/2024 10:48:02.8521	1.58051	0.231334	16.9093	0.0474035	1	38	0.010376	0.000926632	0	0.00188524	0.0891798	0.00472844	0.089305	3.03507	47.4035	894.043	895.299	-86.9649	0.0000000E+000	0.0000000E+000	0.0000000E+000	86.9649	0.0000000E+000	0.0000000E+000	0.0000000E+000	-86.9649	0.0000000E+000	0.0000000E+000	0.0000000E+000	-3.03507	0.0000000E+000	0.0000000E+000	0.0000000E+000	3.03507	18.8603	86.9649	1.85161e-05
31686.1	10.9399	0.43215	10.9484	-2.26213	04/11/2024 10:48:03.7041	1.58052	0.23051	11.623	0.0181085	1	38	0.00982913	0.000897767	0	0.00193833	0.0912662	0.00360522	0.0913373	2.26213	18.1085	458.418	458.775	-87.7379	0.0000000E+000	0.0000000E+000	0.0000000E+000	87.7379	0.0000000E+000	0.0000000E+000	0.0000000E+000	-87.7379	0.0000000E+000	0.0000000E+000	0.0000000E+000	-2.26213	0.0000000E+000	0.0000000E+000	0.0000000E+000	2.26213	25.315	87.7379	1.75788e-05
63233	10.795	0.256071	10.7981	-1.35887	04/11/2024 10:48:04.8271	1.58053	0.228724	9.82916	0.0055277	1	38	0.00987045	0.000914095	0	0.00200814	0.0925832	0.00219618	0.0926092	1.35887	5.52772	233.028	233.094	-88.6411	0.0000000E+000	0.0000000E+000	0.0000000E+000	88.6411	0.0000000E+000	0.0000000E+000	0.0000000E+000	-88.6411	0.0000000E+000	0.0000000E+000	0.0000000E+000	-1.35887	0.0000000E+000	0.0000000E+000	0.0000000E+000	1.35887	42.1564	88.6411	2.59456e-05
126178	10.7216	0.124097	10.7223	-0.663144	04/11/2024 10:48:06.0841	1.58052	0.227579	10.1642	0.00136152	1	38	0.00944234	0.000880627	0	0.00208408	0.0932574	0.00107941	0.0932636	0.663144	1.36152	117.63	117.638	-89.3369	0.0000000E+000	0.0000000E+000	0.0000000E+000	89.3369	0.0000000E+000	0.0000000E+000	0.0000000E+000	-89.3369	0.0000000E+000	0.0000000E+000	0.0000000E+000	-0.663144	0.0000000E+000	0.0000000E+000	0.0000000E+000	0.663144	86.3964	89.3369	2.5933e-05
199998	10.7062	0.031714	10.7063	-0.169722	04/11/2024 10:48:06.9221	1.58052	0.226518	25.0924	0.000220176	1	38	0.00957648	0.000894475	0	0.00213682	0.0934029	0.000276679	0.0934033	0.169722	0.220179	74.3283	74.3287	-89.8303	0.0000000E+000	0.0000000E+000	0.0000000E+000	89.8303	0.0000000E+000	0.0000000E+000	0.0000000E+000	-89.8303	0.0000000E+000	0.0000000E+000	0.0000000E+000	-0.169722	0.0000000E+000	0.0000000E+000	0.0000000E+000	0.169722	337.586	89.8303	2.55359e-05